{
  "resourceType": "Bundle",
  "type": "message",
  "timestamp": "2025-09-26T20:44:00+01:00",
  "entry": [
    {
      "fullUrl": "urn:uuid:msg-001",
      "resource": {
        "resourceType": "MessageHeader",
        "id": "msg-001",
        "eventCoding": {
          "system": "http://terminology.hl7.org/CodeSystem/v2-0003",
          "code": "R01",
          "display": "ORU_R01"
        },
        "source": {
          "name": "CityLab Pathology",
          "endpoint": "http://citylab.example.org/fhir"
        },
        "destination": [
          {
            "name": "General Hospital EHR",
            "endpoint": "http://hospital.example.org/fhir"
          }
        ],
        "sender": {
          "reference": "Organization/lab-org-001"
        },
        "focus": [
          {
            "reference": "DiagnosticReport/dr-001"
          }
        ]
      }
    },
    {
      "fullUrl": "urn:uuid:dr-001",
      "resource": {
        "resourceType": "DiagnosticReport",
        "id": "dr-001",
        "status": "final",
        "code": {
          "coding": [
            {
              "system": "http://loinc.org",
              "code": "58410-2",
              "display": "Complete blood count (CBC) panel"
            }
          ]
        },
        "subject": {
          "reference": "Patient/pat-001"
        },
        "effectiveDateTime": "2025-09-26T09:00:00+01:00",
        "issued": "2025-09-26T10:30:00+01:00",
        "performer": [
          {
            "reference": "Organization/lab-org-001"
          }
        ],
        "result": [
          {
            "reference": "Observation/obs-001"
          }
        ]
      }
    },
    {
      "fullUrl": "urn:uuid:obs-001",
      "resource": {
        "resourceType": "Observation",
        "id": "obs-001",
        "status": "final",
        "code": {
          "coding": [
            {
              "system": "http://loinc.org",
              "code": "718-7",
              "display": "Hemoglobin [Mass/volume] in Blood"
            }
          ]
        },
        "subject": {
          "reference": "Patient/pat-001"
        },
        "effectiveDateTime": "2025-09-26T09:00:00+01:00",
        "valueQuantity": {
          "value": 14.2,
          "unit": "g/dL",
          "system": "http://unitsofmeasure.org",
          "code": "g/dL"
        },
        "referenceRange": [
          {
            "low": {
              "value": 13.5,
              "unit": "g/dL"
            },
            "high": {
              "value": 17.5,
              "unit": "g/dL"
            }
          }
        ]
      }
    },
    {
      "fullUrl": "urn:uuid:pat-001",
      "resource": {
        "resourceType": "Patient",
        "id": "pat-001",
        "identifier": [
          {
            "system": "http://hospital.example.org/patient-id",
            "value": "PAT123456"
          }
        ],
        "name": [
          {
            "family": "Smith",
            "given": ["Jane"]
          }
        ],
        "birthDate": "1980-05-15"
      }
    },
    {
      "fullUrl": "urn:uuid:lab-org-001",
      "resource": {
        "resourceType": "Organization",
        "id": "lab-org-001",
        "name": "CityLab Pathology",
        "telecom": [
          {
            "system": "phone",
            "value": "+1-555-123-4567"
          }
        ]
      }
    }
  ]
}